{"resourceType":"Bundle","id":"tests-505a88e3-cd41-468b-87ed-b0e325a7e841-bundle","type":"transaction","entry":[{"resource":{"resourceType":"Bundle","id":"Patient-2-Num1Pass-InfectiveMeds91Days","type":"collection","entry":[{"fullUrl":"https://madie.cms.gov/Patient/505a88e3-cd41-468b-87ed-b0e325a7e841","resource":{"resourceType":"Patient","id":"505a88e3-cd41-468b-87ed-b0e325a7e841","meta":{"profile":["http://hl7.org/fhir/us/qicore/StructureDefinition/qicore-patient"]},"extension":[{"url":"http://hl7.org/fhir/us/core/StructureDefinition/us-core-race","extension":[{"url":"ombCategory","valueCoding":{"system":"urn:oid:2.16.840.1.113883.6.238","code":"2028-9","display":"Asian"}},{"url":"text","valueString":"Asian"}]},{"url":"http://hl7.org/fhir/us/core/StructureDefinition/us-core-ethnicity","extension":[{"url":"ombCategory","valueCoding":{"system":"urn:oid:2.16.840.1.113883.6.238","code":"2135-2","display":"Hispanic or Latino"}},{"url":"text","valueString":"Hispanic or Latino"}]}],"identifier":[{"system":"http://hospital.smarthealthit.org","value":"999999995"}],"name":[{"family":"Bertha","given":["Betty"]}],"gender":"female","birthDate":"1957-01-01"}},{"fullUrl":"https://madie.cms.gov/Encounter/Encounter-2","resource":{"resourceType":"Encounter","id":"Encounter-2","meta":{"profile":["http://hl7.org/fhir/us/qicore/StructureDefinition/qicore-encounter"]},"status":"finished","class":{"system":"http://terminology.hl7.org/CodeSystem/v3-ActCode","code":"AMB","display":"ambulatory"},"type":[{"coding":[{"system":"http://www.ama-assn.org/go/cpt","version":"2023","code":"99397","display":"Periodic comprehensive preventive medicine reevaluation and management of an individual including an age and gender appropriate history, examination, counseling/anticipatory guidance/risk factor reduction interventions, and the ordering of laboratory/diagnostic procedures, established patient; 65 years and older"}]}],"subject":{"reference":"Patient/505a88e3-cd41-468b-87ed-b0e325a7e841"},"period":{"start":"2024-01-01T00:00:00.000Z","end":"2024-01-01T00:15:00.000Z"}}},{"fullUrl":"https://madie.cms.gov/MedicationRequest/MedicationRequest-3","resource":{"resourceType":"MedicationRequest","id":"MedicationRequest-3","meta":{"profile":["http://hl7.org/fhir/us/qicore/StructureDefinition/qicore-medicationrequest"]},"status":"active","intent":"order","category":[{"coding":[{"system":"http://terminology.hl7.org/CodeSystem/medicationrequest-category","code":"discharge","display":"Discharge"}]}],"medicationCodeableConcept":{"coding":[{"system":"http://www.nlm.nih.gov/research/umls/rxnorm","code":"1648759","display":"nitrofurantoin, macrocrystals 100 MG Oral Capsule","userSelected":true}]},"subject":{"reference":"Patient/505a88e3-cd41-468b-87ed-b0e325a7e841"},"authoredOn":"2024-01-02T00:00:00.000Z","requester":{"reference":"Practitioner/example"},"dosageInstruction":[{"timing":{"repeat":{"boundsPeriod":{"start":"2024-01-01T00:00:00.000Z","end":"2024-03-03T00:00:00.000Z"}}}}],"dispenseRequest":{"expectedSupplyDuration":{"value":61,"system":"http://unitsofmeasure.org","code":"d"}}}},{"fullUrl":"https://madie.cms.gov/MedicationRequest/MedicationRequest-4","resource":{"resourceType":"MedicationRequest","id":"MedicationRequest-4","meta":{"profile":["http://hl7.org/fhir/us/qicore/StructureDefinition/qicore-medicationrequest"]},"status":"active","intent":"order","category":[{"coding":[{"system":"http://terminology.hl7.org/CodeSystem/medicationrequest-category","code":"discharge","display":"Discharge"}]}],"medicationCodeableConcept":{"coding":[{"system":"http://www.nlm.nih.gov/research/umls/rxnorm","code":"311989","display":"nitrofurantoin 5 MG/ML Oral Suspension","userSelected":true}]},"subject":{"reference":"Patient/505a88e3-cd41-468b-87ed-b0e325a7e841"},"authoredOn":"2024-01-03T00:00:00.000Z","requester":{"reference":"Practitioner/example"},"dosageInstruction":[{"timing":{"repeat":{"boundsPeriod":{"start":"2024-03-01T00:00:00.000Z","end":"2024-03-31T00:00:00.000Z"}}}}],"dispenseRequest":{"expectedSupplyDuration":{"value":30,"system":"http://unitsofmeasure.org","code":"d"}}}},{"fullUrl":"https://madie.cms.gov/MeasureReport/649c8b4a4c79454c026f7498/505a88e3-cd41-468b-87ed-b0e325a7e841","resource":{"resourceType":"MeasureReport","id":"14c252ac-4f0a-464b-acc7-efd1bd3c7fa6","meta":{"profile":["http://hl7.org/fhir/us/cqfmeasures/StructureDefinition/test-case-cqfm"]},"contained":[{"resourceType":"Parameters","id":"InfectiveMeds91Days-parameters","parameter":[{"name":"subject","valueString":"505a88e3-cd41-468b-87ed-b0e325a7e841"}]}],"extension":[{"url":"http://hl7.org/fhir/us/cqfmeasures/StructureDefinition/cqfm-inputParameters","valueReference":{"reference":"#InfectiveMeds91Days-parameters"}},{"url":"http://hl7.org/fhir/us/cqfmeasures/StructureDefinition/cqfm-testCaseDescription","valueMarkdown":"Two Anti Infective medications supplied over 91 days"}],"modifierExtension":[{"url":"http://hl7.org/fhir/us/cqfmeasures/StructureDefinition/cqfm-isTestCase","valueBoolean":true}],"status":"complete","type":"individual","measure":"http://ecqi.healthit.gov/ecqms/Measure/UseofHighRiskMedicationsintheElderlyFHIR","period":{"start":"2024-01-01","end":"2024-12-31"},"group":[{"population":[{"code":{"coding":[{"system":"http://terminology.hl7.org/CodeSystem/measure-population","code":"initial-population","display":"Initial Population"}]},"count":1},{"code":{"coding":[{"system":"http://terminology.hl7.org/CodeSystem/measure-population","code":"denominator","display":"Denominator"}]},"count":1},{"code":{"coding":[{"system":"http://terminology.hl7.org/CodeSystem/measure-population","code":"denominator-exclusion","display":"Denominator Exclusion"}]},"count":0},{"code":{"coding":[{"system":"http://terminology.hl7.org/CodeSystem/measure-population","code":"numerator","display":"Numerator"}]},"count":1}]},{"population":[{"code":{"coding":[{"system":"http://terminology.hl7.org/CodeSystem/measure-population","code":"initial-population","display":"Initial Population"}]},"count":1},{"code":{"coding":[{"system":"http://terminology.hl7.org/CodeSystem/measure-population","code":"denominator","display":"Denominator"}]},"count":1},{"code":{"coding":[{"system":"http://terminology.hl7.org/CodeSystem/measure-population","code":"denominator-exclusion","display":"Denominator Exclusion"}]},"count":0},{"code":{"coding":[{"system":"http://terminology.hl7.org/CodeSystem/measure-population","code":"numerator","display":"Numerator"}]},"count":0}]},{"population":[{"code":{"coding":[{"system":"http://terminology.hl7.org/CodeSystem/measure-population","code":"initial-population","display":"Initial Population"}]},"count":1},{"code":{"coding":[{"system":"http://terminology.hl7.org/CodeSystem/measure-population","code":"denominator","display":"Denominator"}]},"count":1},{"code":{"coding":[{"system":"http://terminology.hl7.org/CodeSystem/measure-population","code":"denominator-exclusion","display":"Denominator Exclusion"}]},"count":0},{"code":{"coding":[{"system":"http://terminology.hl7.org/CodeSystem/measure-population","code":"numerator","display":"Numerator"}]},"count":1}]}],"evaluatedResource":[{"reference":"https://madie.cms.gov/Patient/505a88e3-cd41-468b-87ed-b0e325a7e841"},{"reference":"https://madie.cms.gov/Encounter/Encounter-2"},{"reference":"https://madie.cms.gov/MedicationRequest/MedicationRequest-3"},{"reference":"https://madie.cms.gov/MedicationRequest/MedicationRequest-4"}]}}]},"request":{"method":"PUT","url":"Bundle/Patient-2-Num1Pass-InfectiveMeds91Days"}}]}