{"resourceType":"Bundle","id":"tests-3201fe4a-d1b0-4296-a60e-8680247e8128-bundle","type":"transaction","entry":[{"resource":{"resourceType":"Bundle","id":"Patient-11-Num1Pass-AvgDailyDoseB4EofMP","type":"collection","entry":[{"fullUrl":"https://madie.cms.gov/Patient/3201fe4a-d1b0-4296-a60e-8680247e8128","resource":{"resourceType":"Patient","id":"3201fe4a-d1b0-4296-a60e-8680247e8128","meta":{"profile":["http://hl7.org/fhir/us/qicore/StructureDefinition/qicore-patient"]},"extension":[{"url":"http://hl7.org/fhir/us/core/StructureDefinition/us-core-race","extension":[{"url":"ombCategory","valueCoding":{"system":"urn:oid:2.16.840.1.113883.6.238","code":"2028-9","display":"Asian"}},{"url":"text","valueString":"Asian"}]},{"url":"http://hl7.org/fhir/us/core/StructureDefinition/us-core-ethnicity","extension":[{"url":"ombCategory","valueCoding":{"system":"urn:oid:2.16.840.1.113883.6.238","code":"2135-2","display":"Hispanic or Latino"}},{"url":"text","valueString":"Hispanic or Latino"}]}],"identifier":[{"system":"http://hospital.smarthealthit.org","value":"999999995"}],"name":[{"family":"Bertha","given":["Betty"]}],"gender":"female","birthDate":"1957-01-01"}},{"fullUrl":"https://madie.cms.gov/Encounter/Encounter-12","resource":{"resourceType":"Encounter","id":"Encounter-12","meta":{"profile":["http://hl7.org/fhir/us/qicore/StructureDefinition/qicore-encounter"]},"status":"finished","class":{"system":"http://terminology.hl7.org/CodeSystem/v3-ActCode","code":"AMB","display":"ambulatory"},"type":[{"coding":[{"system":"http://www.ama-assn.org/go/cpt","version":"2023","code":"98970","display":"Qualified nonphysician health care professional online digital assessment and management, for an established patient, for up to 7 days, cumulative time during the 7 days; 5-10 minutes"}]}],"subject":{"reference":"Patient/3201fe4a-d1b0-4296-a60e-8680247e8128"},"period":{"start":"2024-01-01T00:00:00.000Z","end":"2024-01-01T00:15:00.000Z"}}},{"fullUrl":"https://madie.cms.gov/MedicationRequest/MedicationRequest-9","resource":{"resourceType":"MedicationRequest","id":"MedicationRequest-9","meta":{"profile":["http://hl7.org/fhir/us/qicore/StructureDefinition/qicore-medicationrequest"]},"status":"active","intent":"order","category":[{"coding":[{"system":"http://terminology.hl7.org/CodeSystem/medicationrequest-category","code":"discharge","display":"Discharge"}]}],"medicationCodeableConcept":{"coding":[{"system":"http://www.nlm.nih.gov/research/umls/rxnorm","code":"1000048","display":"doxepin 10 MG Oral Capsule","userSelected":true}]},"subject":{"reference":"Patient/3201fe4a-d1b0-4296-a60e-8680247e8128"},"authoredOn":"2024-12-25T00:00:00.000Z","requester":{"reference":"Practitioner/example"},"dosageInstruction":[{"timing":{"repeat":{"boundsPeriod":{"start":"2024-12-25T00:00:00.000Z","end":"2024-12-30T00:00:00.000Z"}}}}],"dispenseRequest":{"quantity":{"value":5},"expectedSupplyDuration":{"value":5,"system":"http://unitsofmeasure.org","code":"d"}}}},{"fullUrl":"https://madie.cms.gov/MedicationRequest/MedicationRequest-10","resource":{"resourceType":"MedicationRequest","id":"MedicationRequest-10","meta":{"profile":["http://hl7.org/fhir/us/qicore/StructureDefinition/qicore-medicationrequest"]},"status":"active","intent":"order","category":[{"coding":[{"system":"http://terminology.hl7.org/CodeSystem/medicationrequest-category","code":"discharge","display":"Discharge"}]}],"medicationCodeableConcept":{"coding":[{"system":"http://www.nlm.nih.gov/research/umls/rxnorm","code":"1000048","display":"doxepin 10 MG Oral Capsule","userSelected":true}]},"subject":{"reference":"Patient/3201fe4a-d1b0-4296-a60e-8680247e8128"},"authoredOn":"2024-12-30T00:00:00.000Z","requester":{"reference":"Practitioner/example"},"dosageInstruction":[{"timing":{"repeat":{"boundsPeriod":{"start":"2024-12-30T00:00:00.000Z","end":"2024-12-31T12:59:59.000Z"}}}}],"dispenseRequest":{"quantity":{"value":1},"expectedSupplyDuration":{"value":1,"system":"http://unitsofmeasure.org","code":"d"}}}},{"fullUrl":"https://madie.cms.gov/MeasureReport/649c8b4a4c79454c026f7498/3201fe4a-d1b0-4296-a60e-8680247e8128","resource":{"resourceType":"MeasureReport","id":"730a5882-5c12-4026-8ae2-9ea13c77f5d2","meta":{"profile":["http://hl7.org/fhir/us/cqfmeasures/StructureDefinition/test-case-cqfm"]},"contained":[{"resourceType":"Parameters","id":"AvgDailyDoseB4EofMP-parameters","parameter":[{"name":"subject","valueString":"3201fe4a-d1b0-4296-a60e-8680247e8128"}]}],"extension":[{"url":"http://hl7.org/fhir/us/cqfmeasures/StructureDefinition/cqfm-inputParameters","valueReference":{"reference":"#AvgDailyDoseB4EofMP-parameters"}},{"url":"http://hl7.org/fhir/us/cqfmeasures/StructureDefinition/cqfm-testCaseDescription","valueMarkdown":"Average daily does of doxepin is greater than 6 mg/d before the end of the measurement period"}],"modifierExtension":[{"url":"http://hl7.org/fhir/us/cqfmeasures/StructureDefinition/cqfm-isTestCase","valueBoolean":true}],"status":"complete","type":"individual","measure":"http://ecqi.healthit.gov/ecqms/Measure/UseofHighRiskMedicationsintheElderlyFHIR","period":{"start":"2024-01-01","end":"2024-12-31"},"group":[{"population":[{"code":{"coding":[{"system":"http://terminology.hl7.org/CodeSystem/measure-population","code":"initial-population","display":"Initial Population"}]},"count":1},{"code":{"coding":[{"system":"http://terminology.hl7.org/CodeSystem/measure-population","code":"denominator","display":"Denominator"}]},"count":1},{"code":{"coding":[{"system":"http://terminology.hl7.org/CodeSystem/measure-population","code":"denominator-exclusion","display":"Denominator Exclusion"}]},"count":0},{"code":{"coding":[{"system":"http://terminology.hl7.org/CodeSystem/measure-population","code":"numerator","display":"Numerator"}]},"count":1}]},{"population":[{"code":{"coding":[{"system":"http://terminology.hl7.org/CodeSystem/measure-population","code":"initial-population","display":"Initial Population"}]},"count":1},{"code":{"coding":[{"system":"http://terminology.hl7.org/CodeSystem/measure-population","code":"denominator","display":"Denominator"}]},"count":1},{"code":{"coding":[{"system":"http://terminology.hl7.org/CodeSystem/measure-population","code":"denominator-exclusion","display":"Denominator Exclusion"}]},"count":0},{"code":{"coding":[{"system":"http://terminology.hl7.org/CodeSystem/measure-population","code":"numerator","display":"Numerator"}]},"count":0}]},{"population":[{"code":{"coding":[{"system":"http://terminology.hl7.org/CodeSystem/measure-population","code":"initial-population","display":"Initial Population"}]},"count":1},{"code":{"coding":[{"system":"http://terminology.hl7.org/CodeSystem/measure-population","code":"denominator","display":"Denominator"}]},"count":1},{"code":{"coding":[{"system":"http://terminology.hl7.org/CodeSystem/measure-population","code":"denominator-exclusion","display":"Denominator Exclusion"}]},"count":0},{"code":{"coding":[{"system":"http://terminology.hl7.org/CodeSystem/measure-population","code":"numerator","display":"Numerator"}]},"count":1}]}],"evaluatedResource":[{"reference":"https://madie.cms.gov/Patient/3201fe4a-d1b0-4296-a60e-8680247e8128"},{"reference":"https://madie.cms.gov/Encounter/Encounter-12"},{"reference":"https://madie.cms.gov/MedicationRequest/MedicationRequest-9"},{"reference":"https://madie.cms.gov/MedicationRequest/MedicationRequest-10"}]}}]},"request":{"method":"PUT","url":"Bundle/Patient-11-Num1Pass-AvgDailyDoseB4EofMP"}}]}