{"resourceType":"Bundle","id":"tests-b969d275-1e0e-454a-b5fe-1a01708a1270-bundle","type":"transaction","entry":[{"resource":{"resourceType":"Bundle","id":"Patient-3-Num1Pass-MeetsGreaterThanAvgDailyDoseinMP","type":"collection","entry":[{"fullUrl":"https://madie.cms.gov/Patient/b969d275-1e0e-454a-b5fe-1a01708a1270","resource":{"resourceType":"Patient","id":"b969d275-1e0e-454a-b5fe-1a01708a1270","meta":{"profile":["http://hl7.org/fhir/us/qicore/StructureDefinition/qicore-patient"]},"extension":[{"url":"http://hl7.org/fhir/us/core/StructureDefinition/us-core-race","extension":[{"url":"ombCategory","valueCoding":{"system":"urn:oid:2.16.840.1.113883.6.238","code":"2028-9","display":"Asian"}},{"url":"text","valueString":"Asian"}]},{"url":"http://hl7.org/fhir/us/core/StructureDefinition/us-core-ethnicity","extension":[{"url":"ombCategory","valueCoding":{"system":"urn:oid:2.16.840.1.113883.6.238","code":"2135-2","display":"Hispanic or Latino"}},{"url":"text","valueString":"Hispanic or Latino"}]}],"identifier":[{"system":"http://hospital.smarthealthit.org","value":"999999995"}],"name":[{"family":"Bertha","given":["Betty"]}],"gender":"female","birthDate":"1957-01-01"}},{"fullUrl":"https://madie.cms.gov/Encounter/Encounter-3","resource":{"resourceType":"Encounter","id":"Encounter-3","meta":{"profile":["http://hl7.org/fhir/us/qicore/StructureDefinition/qicore-encounter"]},"status":"finished","class":{"system":"http://terminology.hl7.org/CodeSystem/v3-ActCode","code":"AMB","display":"ambulatory"},"type":[{"coding":[{"system":"http://www.ama-assn.org/go/cpt","version":"2023","code":"99315","display":"Nursing facility discharge management; 30 minutes or less total time on the date of the encounter"}]}],"subject":{"reference":"Patient/b969d275-1e0e-454a-b5fe-1a01708a1270"},"period":{"start":"2024-01-01T00:00:00.000Z","end":"2024-01-01T00:15:00.000Z"}}},{"fullUrl":"https://madie.cms.gov/MedicationRequest/MedicationRequest-5","resource":{"resourceType":"MedicationRequest","id":"MedicationRequest-5","meta":{"profile":["http://hl7.org/fhir/us/qicore/StructureDefinition/qicore-medicationrequest"]},"status":"active","intent":"order","category":[{"coding":[{"system":"http://terminology.hl7.org/CodeSystem/medicationrequest-category","code":"discharge","display":"Discharge"}]}],"medicationCodeableConcept":{"coding":[{"system":"http://www.nlm.nih.gov/research/umls/rxnorm","code":"198197","display":"reserpine 0.25 MG Oral Tablet","userSelected":true}]},"subject":{"reference":"Patient/b969d275-1e0e-454a-b5fe-1a01708a1270"},"authoredOn":"2024-01-01T00:00:00.000Z","requester":{"reference":"Practitioner/example"},"dosageInstruction":[{"timing":{"repeat":{"boundsPeriod":{"start":"2024-01-01T00:00:00.000Z","end":"2024-01-06T00:00:00.000Z"}}}}],"dispenseRequest":{"quantity":{"value":5},"expectedSupplyDuration":{"value":5,"system":"http://unitsofmeasure.org","code":"d"}}}},{"fullUrl":"https://madie.cms.gov/MedicationRequest/MedicationRequest-6","resource":{"resourceType":"MedicationRequest","id":"MedicationRequest-6","meta":{"profile":["http://hl7.org/fhir/us/qicore/StructureDefinition/qicore-medicationrequest"]},"status":"active","intent":"order","category":[{"coding":[{"system":"http://terminology.hl7.org/CodeSystem/medicationrequest-category","code":"discharge","display":"Discharge"}]}],"medicationCodeableConcept":{"coding":[{"system":"http://www.nlm.nih.gov/research/umls/rxnorm","code":"198197","display":"reserpine 0.25 MG Oral Tablet","userSelected":true}]},"subject":{"reference":"Patient/b969d275-1e0e-454a-b5fe-1a01708a1270"},"authoredOn":"2024-01-04T00:00:00.000Z","requester":{"reference":"Practitioner/example"},"dosageInstruction":[{"timing":{"repeat":{"boundsPeriod":{"start":"2024-01-04T00:00:00.000Z","end":"2024-01-07T00:00:00.000Z"}}}}],"dispenseRequest":{"quantity":{"value":3},"expectedSupplyDuration":{"value":3,"system":"http://unitsofmeasure.org","code":"d"}}}},{"fullUrl":"https://madie.cms.gov/MeasureReport/649c8b4a4c79454c026f7498/b969d275-1e0e-454a-b5fe-1a01708a1270","resource":{"resourceType":"MeasureReport","id":"535afbbc-8644-4318-a2f3-7d889a702f86","meta":{"profile":["http://hl7.org/fhir/us/cqfmeasures/StructureDefinition/test-case-cqfm"]},"contained":[{"resourceType":"Parameters","id":"MeetsGreaterThanAvgDailyDoseinMP-parameters","parameter":[{"name":"subject","valueString":"b969d275-1e0e-454a-b5fe-1a01708a1270"}]}],"extension":[{"url":"http://hl7.org/fhir/us/cqfmeasures/StructureDefinition/cqfm-inputParameters","valueReference":{"reference":"#MeetsGreaterThanAvgDailyDoseinMP-parameters"}},{"url":"http://hl7.org/fhir/us/cqfmeasures/StructureDefinition/cqfm-testCaseDescription","valueMarkdown":"Patient has greater than average daily dose for Resperine medication"}],"modifierExtension":[{"url":"http://hl7.org/fhir/us/cqfmeasures/StructureDefinition/cqfm-isTestCase","valueBoolean":true}],"status":"complete","type":"individual","measure":"http://ecqi.healthit.gov/ecqms/Measure/UseofHighRiskMedicationsintheElderlyFHIR","period":{"start":"2024-01-01","end":"2024-12-31"},"group":[{"population":[{"code":{"coding":[{"system":"http://terminology.hl7.org/CodeSystem/measure-population","code":"initial-population","display":"Initial Population"}]},"count":1},{"code":{"coding":[{"system":"http://terminology.hl7.org/CodeSystem/measure-population","code":"denominator","display":"Denominator"}]},"count":1},{"code":{"coding":[{"system":"http://terminology.hl7.org/CodeSystem/measure-population","code":"denominator-exclusion","display":"Denominator Exclusion"}]},"count":0},{"code":{"coding":[{"system":"http://terminology.hl7.org/CodeSystem/measure-population","code":"numerator","display":"Numerator"}]},"count":1}]},{"population":[{"code":{"coding":[{"system":"http://terminology.hl7.org/CodeSystem/measure-population","code":"initial-population","display":"Initial Population"}]},"count":1},{"code":{"coding":[{"system":"http://terminology.hl7.org/CodeSystem/measure-population","code":"denominator","display":"Denominator"}]},"count":1},{"code":{"coding":[{"system":"http://terminology.hl7.org/CodeSystem/measure-population","code":"denominator-exclusion","display":"Denominator Exclusion"}]},"count":0},{"code":{"coding":[{"system":"http://terminology.hl7.org/CodeSystem/measure-population","code":"numerator","display":"Numerator"}]},"count":0}]},{"population":[{"code":{"coding":[{"system":"http://terminology.hl7.org/CodeSystem/measure-population","code":"initial-population","display":"Initial Population"}]},"count":1},{"code":{"coding":[{"system":"http://terminology.hl7.org/CodeSystem/measure-population","code":"denominator","display":"Denominator"}]},"count":1},{"code":{"coding":[{"system":"http://terminology.hl7.org/CodeSystem/measure-population","code":"denominator-exclusion","display":"Denominator Exclusion"}]},"count":0},{"code":{"coding":[{"system":"http://terminology.hl7.org/CodeSystem/measure-population","code":"numerator","display":"Numerator"}]},"count":1}]}],"evaluatedResource":[{"reference":"https://madie.cms.gov/Patient/b969d275-1e0e-454a-b5fe-1a01708a1270"},{"reference":"https://madie.cms.gov/Encounter/Encounter-3"},{"reference":"https://madie.cms.gov/MedicationRequest/MedicationRequest-5"},{"reference":"https://madie.cms.gov/MedicationRequest/MedicationRequest-6"}]}}]},"request":{"method":"PUT","url":"Bundle/Patient-3-Num1Pass-MeetsGreaterThanAvgDailyDoseinMP"}}]}