{"resourceType":"Bundle","id":"tests-fca45598-148d-4a03-8313-67e275d2710a-bundle","type":"transaction","entry":[{"resource":{"resourceType":"Bundle","id":"Patient-20-Num3Pass-MeetsNum1NotNum2","type":"collection","entry":[{"fullUrl":"https://madie.cms.gov/Patient/fca45598-148d-4a03-8313-67e275d2710a","resource":{"resourceType":"Patient","id":"fca45598-148d-4a03-8313-67e275d2710a","meta":{"profile":["http://hl7.org/fhir/us/qicore/StructureDefinition/qicore-patient"]},"extension":[{"url":"http://hl7.org/fhir/us/core/StructureDefinition/us-core-race","extension":[{"url":"ombCategory","valueCoding":{"system":"urn:oid:2.16.840.1.113883.6.238","code":"2028-9","display":"Asian"}},{"url":"text","valueString":"Asian"}]},{"url":"http://hl7.org/fhir/us/core/StructureDefinition/us-core-ethnicity","extension":[{"url":"ombCategory","valueCoding":{"system":"urn:oid:2.16.840.1.113883.6.238","code":"2135-2","display":"Hispanic or Latino"}},{"url":"text","valueString":"Hispanic or Latino"}]}],"identifier":[{"system":"http://hospital.smarthealthit.org","value":"999999995"}],"name":[{"family":"Bertha","given":["Betty"]}],"gender":"female","birthDate":"1957-01-01"}},{"fullUrl":"https://madie.cms.gov/Encounter/Encounter-19","resource":{"resourceType":"Encounter","id":"Encounter-19","meta":{"profile":["http://hl7.org/fhir/us/qicore/StructureDefinition/qicore-encounter"]},"status":"finished","class":{"system":"http://terminology.hl7.org/CodeSystem/v3-ActCode","code":"AMB","display":"ambulatory"},"type":[{"coding":[{"system":"http://snomed.info/sct","code":"185460008","display":"Home visit request by patient (procedure)"}]}],"subject":{"reference":"Patient/fca45598-148d-4a03-8313-67e275d2710a"},"period":{"start":"2024-01-01T00:00:00.000Z","end":"2024-01-01T00:15:00.000Z"}}},{"fullUrl":"https://madie.cms.gov/Condition/Condition-7","resource":{"resourceType":"Condition","id":"Condition-7","meta":{"profile":["http://hl7.org/fhir/us/qicore/StructureDefinition/qicore-condition"]},"clinicalStatus":{"coding":[{"system":"http://terminology.hl7.org/CodeSystem/condition-clinical","code":"active"}]},"category":[{"coding":[{"system":"http://terminology.hl7.org/CodeSystem/condition-category","code":"problem-list-item","display":"Problem List Item"}]}],"code":{"coding":[{"system":"http://snomed.info/sct","code":"415238003","display":"Rapid eye movement sleep behavior disorder (disorder)"}]},"subject":{"reference":"Patient/fca45598-148d-4a03-8313-67e275d2710a"},"onsetDateTime":"2022-01-01T00:00:00.000Z"}},{"fullUrl":"https://madie.cms.gov/MedicationRequest/MedicationRequest-25","resource":{"resourceType":"MedicationRequest","id":"MedicationRequest-25","meta":{"profile":["http://hl7.org/fhir/us/qicore/StructureDefinition/qicore-medicationrequest"]},"status":"active","intent":"order","category":[{"coding":[{"system":"http://terminology.hl7.org/CodeSystem/medicationrequest-category","code":"discharge","display":"Discharge"}]}],"medicationCodeableConcept":{"coding":[{"system":"http://www.nlm.nih.gov/research/umls/rxnorm","code":"197622","display":"dipyridamole 50 MG Oral Tablet","userSelected":true}]},"subject":{"reference":"Patient/fca45598-148d-4a03-8313-67e275d2710a"},"authoredOn":"2024-01-02T00:00:00.000Z","requester":{"reference":"Practitioner/example"}}},{"fullUrl":"https://madie.cms.gov/MedicationRequest/MedicationRequest-26","resource":{"resourceType":"MedicationRequest","id":"MedicationRequest-26","meta":{"profile":["http://hl7.org/fhir/us/qicore/StructureDefinition/qicore-medicationrequest"]},"status":"active","intent":"order","category":[{"coding":[{"system":"http://terminology.hl7.org/CodeSystem/medicationrequest-category","code":"discharge","display":"Discharge"}]}],"medicationCodeableConcept":{"coding":[{"system":"http://www.nlm.nih.gov/research/umls/rxnorm","code":"197622","display":"dipyridamole 50 MG Oral Tablet","userSelected":true}]},"subject":{"reference":"Patient/fca45598-148d-4a03-8313-67e275d2710a"},"authoredOn":"2024-01-03T00:00:00.000Z","requester":{"reference":"Practitioner/example"}}},{"fullUrl":"https://madie.cms.gov/MedicationRequest/MedicationRequest-27","resource":{"resourceType":"MedicationRequest","id":"MedicationRequest-27","meta":{"profile":["http://hl7.org/fhir/us/qicore/StructureDefinition/qicore-medicationrequest"]},"status":"active","intent":"order","category":[{"coding":[{"system":"http://terminology.hl7.org/CodeSystem/medicationrequest-category","code":"discharge","display":"Discharge"}]}],"medicationCodeableConcept":{"coding":[{"system":"http://www.nlm.nih.gov/research/umls/rxnorm","code":"1298088","display":"flurazepam hydrochloride 15 MG Oral Capsule","userSelected":true}]},"subject":{"reference":"Patient/fca45598-148d-4a03-8313-67e275d2710a"},"authoredOn":"2024-01-01T00:00:00.000Z","requester":{"reference":"Practitioner/example"}}},{"fullUrl":"https://madie.cms.gov/MedicationRequest/MedicationRequest-28","resource":{"resourceType":"MedicationRequest","id":"MedicationRequest-28","meta":{"profile":["http://hl7.org/fhir/us/qicore/StructureDefinition/qicore-medicationrequest"]},"status":"active","intent":"order","category":[{"coding":[{"system":"http://terminology.hl7.org/CodeSystem/medicationrequest-category","code":"discharge","display":"Discharge"}]}],"medicationCodeableConcept":{"coding":[{"system":"http://www.nlm.nih.gov/research/umls/rxnorm","code":"1298088","display":"flurazepam hydrochloride 15 MG Oral Capsule","userSelected":true}]},"subject":{"reference":"Patient/fca45598-148d-4a03-8313-67e275d2710a"},"authoredOn":"2024-01-02T00:15:00.000Z","requester":{"reference":"Practitioner/example"}}},{"fullUrl":"https://madie.cms.gov/MeasureReport/649c8b4a4c79454c026f7498/fca45598-148d-4a03-8313-67e275d2710a","resource":{"resourceType":"MeasureReport","id":"e42e5fdf-8592-43f7-9a05-7e948fc74d0d","meta":{"profile":["http://hl7.org/fhir/us/cqfmeasures/StructureDefinition/test-case-cqfm"]},"contained":[{"resourceType":"Parameters","id":"MeetsNum1NotNum2-parameters","parameter":[{"name":"subject","valueString":"fca45598-148d-4a03-8313-67e275d2710a"}]}],"extension":[{"url":"http://hl7.org/fhir/us/cqfmeasures/StructureDefinition/cqfm-inputParameters","valueReference":{"reference":"#MeetsNum1NotNum2-parameters"}},{"url":"http://hl7.org/fhir/us/cqfmeasures/StructureDefinition/cqfm-testCaseDescription","valueMarkdown":"Meets numerator 1 criteria and not numerator 2"}],"modifierExtension":[{"url":"http://hl7.org/fhir/us/cqfmeasures/StructureDefinition/cqfm-isTestCase","valueBoolean":true}],"status":"complete","type":"individual","measure":"http://ecqi.healthit.gov/ecqms/Measure/UseofHighRiskMedicationsintheElderlyFHIR","period":{"start":"2024-01-01","end":"2024-12-31"},"group":[{"population":[{"code":{"coding":[{"system":"http://terminology.hl7.org/CodeSystem/measure-population","code":"initial-population","display":"Initial Population"}]},"count":1},{"code":{"coding":[{"system":"http://terminology.hl7.org/CodeSystem/measure-population","code":"denominator","display":"Denominator"}]},"count":1},{"code":{"coding":[{"system":"http://terminology.hl7.org/CodeSystem/measure-population","code":"denominator-exclusion","display":"Denominator Exclusion"}]},"count":0},{"code":{"coding":[{"system":"http://terminology.hl7.org/CodeSystem/measure-population","code":"numerator","display":"Numerator"}]},"count":1}]},{"population":[{"code":{"coding":[{"system":"http://terminology.hl7.org/CodeSystem/measure-population","code":"initial-population","display":"Initial Population"}]},"count":1},{"code":{"coding":[{"system":"http://terminology.hl7.org/CodeSystem/measure-population","code":"denominator","display":"Denominator"}]},"count":1},{"code":{"coding":[{"system":"http://terminology.hl7.org/CodeSystem/measure-population","code":"denominator-exclusion","display":"Denominator Exclusion"}]},"count":0},{"code":{"coding":[{"system":"http://terminology.hl7.org/CodeSystem/measure-population","code":"numerator","display":"Numerator"}]},"count":0}]},{"population":[{"code":{"coding":[{"system":"http://terminology.hl7.org/CodeSystem/measure-population","code":"initial-population","display":"Initial Population"}]},"count":1},{"code":{"coding":[{"system":"http://terminology.hl7.org/CodeSystem/measure-population","code":"denominator","display":"Denominator"}]},"count":1},{"code":{"coding":[{"system":"http://terminology.hl7.org/CodeSystem/measure-population","code":"denominator-exclusion","display":"Denominator Exclusion"}]},"count":0},{"code":{"coding":[{"system":"http://terminology.hl7.org/CodeSystem/measure-population","code":"numerator","display":"Numerator"}]},"count":1}]}],"evaluatedResource":[{"reference":"https://madie.cms.gov/Patient/fca45598-148d-4a03-8313-67e275d2710a"},{"reference":"https://madie.cms.gov/Encounter/Encounter-19"},{"reference":"https://madie.cms.gov/Condition/Condition-7"},{"reference":"https://madie.cms.gov/MedicationRequest/MedicationRequest-25"},{"reference":"https://madie.cms.gov/MedicationRequest/MedicationRequest-26"},{"reference":"https://madie.cms.gov/MedicationRequest/MedicationRequest-27"},{"reference":"https://madie.cms.gov/MedicationRequest/MedicationRequest-28"}]}}]},"request":{"method":"PUT","url":"Bundle/Patient-20-Num3Pass-MeetsNum1NotNum2"}}]}