{
  "resourceType": "Bundle",
  "id": "98116841646686466847",
  "type": "collection",
  "entry": [ {
    "fullUrl": "https://madie.cms.gov/Patient/9b4f7024-eb2e-4896-90e7-13638aefbe92",
    "resource": {
      "resourceType": "Patient",
      "id": "9b4f7024-eb2e-4896-90e7-13638aefbe92",
      "meta": {
        "profile": [ "http://hl7.org/fhir/us/qicore/StructureDefinition/qicore-patient" ]
      },
      "extension": [ {
        "url": "http://hl7.org/fhir/us/core/StructureDefinition/us-core-race",
        "extension": [ {
          "url": "ombCategory",
          "valueCoding": {
            "system": "urn:oid:2.16.840.1.113883.6.238",
            "code": "2106-3",
            "display": "White"
          }
        }, {
          "url": "text",
          "valueString": "White"
        } ]
      }, {
        "url": "http://hl7.org/fhir/us/core/StructureDefinition/us-core-ethnicity",
        "extension": [ {
          "url": "ombCategory",
          "valueCoding": {
            "system": "urn:oid:2.16.840.1.113883.6.238",
            "code": "2186-5",
            "display": "Not Hispanic or Latino"
          }
        }, {
          "url": "text",
          "valueString": "Not Hispanic or Latino"
        } ]
      } ],
      "identifier": [ {
        "type": {
          "coding": [ {
            "system": "http://terminology.hl7.org/CodeSystem/v2-0203",
            "code": "MR"
          } ]
        },
        "system": "https://bonnie-fhir.healthit.gov/",
        "value": "6546841651641616513421"
      } ],
      "name": [ {
        "family": "DENEXPopStrat2Pass",
        "given": [ "HospiceProcedureInMP" ]
      } ],
      "gender": "female",
      "birthDate": "1955-01-01"
    }
  }, {
    "fullUrl": "https://madie.cms.gov/Encounter/846816468613163156",
    "resource": {
      "resourceType": "Encounter",
      "id": "846816468613163156",
      "meta": {
        "profile": [ "http://hl7.org/fhir/us/qicore/StructureDefinition/qicore-encounter" ]
      },
      "status": "finished",
      "class": {
        "system": "http://terminology.hl7.org/CodeSystem/v3-ActCode",
        "code": "AMB",
        "display": "ambulatory"
      },
      "type": [ {
        "coding": [ {
          "system": "http://www.ama-assn.org/go/cpt",
          "version": "2023",
          "code": "90791"
        } ]
      } ],
      "subject": {
        "reference": "Patient/9b4f7024-eb2e-4896-90e7-13638aefbe92"
      },
      "period": {
        "start": "2023-02-25T14:30:00+00:00",
        "end": "2023-02-25T14:50:00+00:00"
      },
      "length": {
        "value": 0.0,
        "unit": "days"
      }
    }
  }, {
    "fullUrl": "https://madie.cms.gov/Observation/98778613516461352131315",
    "resource": {
      "resourceType": "Observation",
      "id": "98778613516461352131315",
      "meta": {
        "profile": [ "http://hl7.org/fhir/us/qicore/StructureDefinition/qicore-observation" ]
      },
      "status": "final",
      "category": [ {
        "coding": [ {
          "system": "http://terminology.hl7.org/CodeSystem/observation-category",
          "code": "survey",
          "display": "Survey"
        } ]
      } ],
      "code": {
        "coding": [ {
          "system": "http://loinc.org",
          "version": "2.73",
          "code": "44261-6"
        } ]
      },
      "subject": {
        "reference": "Patient/9b4f7024-eb2e-4896-90e7-13638aefbe92"
      },
      "effectiveDateTime": "2023-02-25T14:35:00+00:00",
      "valueInteger": 10
    }
  }, {
    "fullUrl": "https://madie.cms.gov/Observation/784651651684135131313",
    "resource": {
      "resourceType": "Observation",
      "id": "784651651684135131313",
      "meta": {
        "profile": [ "http://hl7.org/fhir/us/qicore/StructureDefinition/qicore-observation" ]
      },
      "status": "final",
      "category": [ {
        "coding": [ {
          "system": "http://terminology.hl7.org/CodeSystem/observation-category",
          "code": "survey",
          "display": "Survey"
        } ]
      } ],
      "code": {
        "coding": [ {
          "system": "http://loinc.org",
          "version": "2.73",
          "code": "44261-6"
        } ]
      },
      "subject": {
        "reference": "Patient/9b4f7024-eb2e-4896-90e7-13638aefbe92"
      },
      "effectiveDateTime": "2024-02-19T14:30:00+00:00",
      "valueInteger": 3
    }
  }, {
    "fullUrl": "https://madie.cms.gov/Condition/18961651646466486545",
    "resource": {
      "resourceType": "Condition",
      "id": "18961651646466486545",
      "meta": {
        "profile": [ "http://hl7.org/fhir/us/qicore/StructureDefinition/qicore-condition" ]
      },
      "clinicalStatus": {
        "coding": [ {
          "system": "http://terminology.hl7.org/CodeSystem/condition-clinical",
          "code": "active",
          "display": "active"
        } ]
      },
      "verificationStatus": {
        "coding": [ {
          "system": "http://terminology.hl7.org/CodeSystem/condition-ver-status",
          "code": "confirmed"
        } ]
      },
      "category": [ {
        "coding": [ {
          "system": "http://terminology.hl7.org/CodeSystem/condition-category",
          "code": "problem-list-item",
          "display": "Problem List Item"
        } ]
      } ],
      "code": {
        "coding": [ {
          "system": "http://hl7.org/fhir/sid/icd-10-cm",
          "version": "2023",
          "code": "F32.9"
        } ]
      },
      "subject": {
        "reference": "Patient/9b4f7024-eb2e-4896-90e7-13638aefbe92"
      },
      "onsetDateTime": "2023-02-25T14:35:00+00:00"
    }
  }, {
    "fullUrl": "https://madie.cms.gov/Procedure/HospiceProcedureInMP",
    "resource": {
      "resourceType": "Procedure",
      "id": "HospiceProcedureInMP",
      "meta": {
        "profile": [ "http://hl7.org/fhir/us/qicore/StructureDefinition/qicore-procedure" ]
      },
      "extension": [ {
        "url": "http://hl7.org/fhir/us/qicore/StructureDefinition/qicore-recorded",
        "valueDateTime": "2024-02-01T08:00:00.000+00:00"
      } ],
      "status": "completed",
      "code": {
        "coding": [ {
          "system": "http://snomed.info/sct",
          "version": "http://snomed.info/sct/731000124108/version/202303",
          "code": "385765002",
          "display": "Hospice care management (procedure)",
          "userSelected": true
        } ]
      },
      "subject": {
        "reference": "Patient/9b4f7024-eb2e-4896-90e7-13638aefbe92"
      },
      "performedPeriod": {
        "start": "2024-01-01T08:00:00.000+00:00",
        "end": "2024-02-01T08:15:00.000+00:00"
      }
    }
  }, {
    "fullUrl": "https://madie.cms.gov/MeasureReport/638501ed4ba3d47c885c02b1/9b4f7024-eb2e-4896-90e7-13638aefbe92",
    "resource": {
      "resourceType": "MeasureReport",
      "id": "389ba199-31ed-4e75-a2f5-6e92ab9bebee",
      "meta": {
        "profile": [ "http://hl7.org/fhir/us/cqfmeasures/StructureDefinition/test-case-cqfm" ]
      },
      "contained": [ {
        "resourceType": "Parameters",
        "id": "HospiceProcedureInMP2-parameters",
        "parameter": [ {
          "name": "subject",
          "valueString": "9b4f7024-eb2e-4896-90e7-13638aefbe92"
        } ]
      } ],
      "extension": [ {
        "url": "http://hl7.org/fhir/us/cqfmeasures/StructureDefinition/cqfm-inputParameters",
        "valueReference": {
          "reference": "#HospiceProcedureInMP2-parameters"
        }
      }, {
        "url": "http://hl7.org/fhir/us/cqfmeasures/StructureDefinition/cqfm-testCaseDescription",
        "valueMarkdown": "Patient has a Dysthymia DX and PHQ-9>9 during the denom ID period. Patient has Hospice procedure during MP. Should be in denominator exclusion for Strat 2. "
      } ],
      "modifierExtension": [ {
        "url": "http://hl7.org/fhir/us/cqfmeasures/StructureDefinition/cqfm-isTestCase",
        "valueBoolean": true
      } ],
      "status": "complete",
      "type": "individual",
      "measure": "http://ecqi.healthit.gov/ecqms/Measure/DepressionRemissionatTwelveMonthsFHIR",
      "period": {
        "start": "2024-01-01",
        "end": "2024-12-31"
      },
      "group": [ {
        "population": [ {
          "code": {
            "coding": [ {
              "system": "http://terminology.hl7.org/CodeSystem/measure-population",
              "code": "initial-population",
              "display": "Initial Population"
            } ]
          },
          "count": 1
        }, {
          "code": {
            "coding": [ {
              "system": "http://terminology.hl7.org/CodeSystem/measure-population",
              "code": "denominator",
              "display": "Denominator"
            } ]
          },
          "count": 1
        }, {
          "code": {
            "coding": [ {
              "system": "http://terminology.hl7.org/CodeSystem/measure-population",
              "code": "denominator-exclusion",
              "display": "Denominator Exclusion"
            } ]
          },
          "count": 1
        }, {
          "code": {
            "coding": [ {
              "system": "http://terminology.hl7.org/CodeSystem/measure-population",
              "code": "numerator",
              "display": "Numerator"
            } ]
          },
          "count": 0
        } ]
      } ],
      "evaluatedResource": [ {
        "reference": "https://madie.cms.gov/Patient/9b4f7024-eb2e-4896-90e7-13638aefbe92"
      }, {
        "reference": "https://madie.cms.gov/Encounter/846816468613163156"
      }, {
        "reference": "https://madie.cms.gov/Observation/98778613516461352131315"
      }, {
        "reference": "https://madie.cms.gov/Observation/784651651684135131313"
      }, {
        "reference": "https://madie.cms.gov/Condition/18961651646466486545"
      }, {
        "reference": "https://madie.cms.gov/Procedure/HospiceProcedureInMP"
      } ]
    }
  } ]
}