{"resourceType":"Bundle","id":"tests-f944825a-367c-46c5-b753-d59f088038d2-bundle","type":"transaction","entry":[{"resource":{"resourceType":"Bundle","id":"62fa3a0501afff138d1e9c5f","type":"collection","entry":[{"fullUrl":"https://madie.cms.gov/Patient/f944825a-367c-46c5-b753-d59f088038d2","resource":{"resourceType":"Patient","id":"f944825a-367c-46c5-b753-d59f088038d2","meta":{"profile":["http://hl7.org/fhir/us/qicore/StructureDefinition/qicore-patient"]},"extension":[{"url":"http://hl7.org/fhir/us/core/StructureDefinition/us-core-race","extension":[{"url":"ombCategory","valueCoding":{"system":"urn:oid:2.16.840.1.113883.6.238","code":"2054-5","display":"Black or African American","userSelected":true}},{"url":"text","valueString":"Black or African American"}]},{"url":"http://hl7.org/fhir/us/core/StructureDefinition/us-core-ethnicity","extension":[{"url":"ombCategory","valueCoding":{"system":"urn:oid:2.16.840.1.113883.6.238","code":"2186-5","display":"Not Hispanic or Latino","userSelected":true}},{"url":"text","valueString":"Not Hispanic or Latino"}]}],"identifier":[{"type":{"coding":[{"system":"http://terminology.hl7.org/CodeSystem/v2-0203","code":"MR"}]},"system":"https://bonnie-fhir.healthit.gov/","value":"62fa3a0501afff138d1e9c5f"}],"name":[{"family":"DENEXCEPop2Pass","given":["HepB"]}],"gender":"female","birthDate":"2002-12-31"}},{"fullUrl":"https://madie.cms.gov/Encounter/unlisted-preventive-medicine-service-d4bb","resource":{"resourceType":"Encounter","id":"unlisted-preventive-medicine-service-d4bb","meta":{"profile":["http://hl7.org/fhir/us/qicore/StructureDefinition/qicore-encounter"]},"status":"finished","class":{"system":"http://terminology.hl7.org/CodeSystem/v3-ActCode","code":"AMB","display":"ambulatory"},"type":[{"coding":[{"system":"http://snomed.info/sct","code":"185389009","display":"Follow-up visit (procedure)","userSelected":true}]}],"subject":{"reference":"Patient/f944825a-367c-46c5-b753-d59f088038d2"},"period":{"start":"2024-01-01T08:00:00.000+00:00","end":"2024-01-01T08:30:00.000+00:00"}}},{"fullUrl":"https://madie.cms.gov/Condition/hepatitis-b-35c1","resource":{"resourceType":"Condition","id":"hepatitis-b-35c1","meta":{"profile":["http://hl7.org/fhir/us/qicore/StructureDefinition/qicore-condition"]},"clinicalStatus":{"coding":[{"system":"http://terminology.hl7.org/CodeSystem/condition-clinical","code":"active","display":"active","userSelected":true}]},"category":[{"coding":[{"system":"http://terminology.hl7.org/CodeSystem/condition-category","code":"problem-list-item","display":"Problem List Item"}]}],"code":{"coding":[{"system":"http://snomed.info/sct","version":"2022-03","code":"1116000","display":"Chronic aggressive type B viral hepatitis (disorder)","userSelected":true}]},"subject":{"reference":"Patient/f944825a-367c-46c5-b753-d59f088038d2"},"onsetPeriod":{"start":"2023-12-31T08:00:00.000+00:00"}}},{"fullUrl":"https://madie.cms.gov/Observation/ldl-cholesterol-9c60","resource":{"resourceType":"Observation","id":"ldl-cholesterol-9c60","meta":{"profile":["http://hl7.org/fhir/us/qicore/StructureDefinition/qicore-observation"]},"status":"final","category":[{"coding":[{"system":"http://terminology.hl7.org/CodeSystem/observation-category","code":"procedure","display":"Procedure"}]}],"code":{"coding":[{"system":"http://loinc.org","version":"2.72","code":"13457-7","display":"Cholesterol in LDL [Mass/volume] in Serum or Plasma by calculation","userSelected":true}]},"subject":{"reference":"Patient/f944825a-367c-46c5-b753-d59f088038d2"},"effectiveDateTime":"2024-01-01T08:45:00.000+00:00","valueQuantity":{"value":190.0,"unit":"mg/dL","system":"http://unitsofmeasure.org","code":"mg/dL"}}},{"fullUrl":"https://madie.cms.gov/Coverage/1","resource":{"resourceType":"Coverage","id":"1","meta":{"profile":["http://hl7.org/fhir/us/qicore/StructureDefinition/qicore-coverage"]},"status":"active","beneficiary":{"reference":"Patient/f944825a-367c-46c5-b753-d59f088038d2"},"payor":[{"reference":"Organization/123456"}]}},{"fullUrl":"https://madie.cms.gov/Organization/123456","resource":{"resourceType":"Organization","id":"123456","meta":{"profile":["http://hl7.org/fhir/us/qicore/StructureDefinition/qicore-organization"]},"identifier":[{"use":"temp","system":"urn:oid:2.16.840.1.113883.4.4","value":"21-3259825"}],"active":true,"type":[{"coding":[{"system":"http://terminology.hl7.org/CodeSystem/organization-type","code":"pay","display":"Payer"}]}],"name":"Blue Cross Blue Shield of Texas","telecom":[{"system":"phone","value":"(+1) 972-766-6900"}],"address":[{"use":"billing","type":"postal","line":["P.O. Box 660044"],"city":"Dallas","state":"TX","postalCode":"75266-0044","country":"USA"}]}},{"fullUrl":"https://madie.cms.gov/Practitioner/practitioner-123456","resource":{"resourceType":"Practitioner","id":"practitioner-123456","meta":{"profile":["http://hl7.org/fhir/us/qicore/StructureDefinition/qicore-practitioner"]},"identifier":[{"system":"http://hl7.org/fhir/sid/us-npi","value":"123456"}],"name":[{"family":"Evil","prefix":["Dr"]}]}},{"fullUrl":"https://madie.cms.gov/MeasureReport/64345cac7c12bd4a0fdf2889/f944825a-367c-46c5-b753-d59f088038d2","resource":{"resourceType":"MeasureReport","id":"81f68489-1cc3-4992-88fa-26cb5b8505bb","meta":{"profile":["http://hl7.org/fhir/us/cqfmeasures/StructureDefinition/test-case-cqfm"]},"contained":[{"resourceType":"Parameters","id":"HepB-parameters","parameter":[{"name":"subject","valueString":"f944825a-367c-46c5-b753-d59f088038d2"}]}],"extension":[{"url":"http://hl7.org/fhir/us/cqfmeasures/StructureDefinition/cqfm-inputParameters","valueReference":{"reference":"#HepB-parameters"}},{"url":"http://hl7.org/fhir/us/cqfmeasures/StructureDefinition/cqfm-testCaseDescription","valueMarkdown":"Enc first day of MP, LDL 190, hep b last day of prior year, expected to meet the denexcep"}],"modifierExtension":[{"url":"http://hl7.org/fhir/us/cqfmeasures/StructureDefinition/cqfm-isTestCase","valueBoolean":true}],"status":"complete","type":"individual","measure":"http://ecqi.healthit.gov/ecqms/Measure/StatinTherapyforthePreventionandTreatmentofCardiovascularDiseaseFHIR","period":{"start":"2024-01-01","end":"2024-12-31"},"group":[{"population":[{"code":{"coding":[{"system":"http://terminology.hl7.org/CodeSystem/measure-population","code":"initial-population","display":"Initial Population"}]},"count":0},{"code":{"coding":[{"system":"http://terminology.hl7.org/CodeSystem/measure-population","code":"denominator","display":"Denominator"}]},"count":0},{"code":{"coding":[{"system":"http://terminology.hl7.org/CodeSystem/measure-population","code":"denominator-exclusion","display":"Denominator Exclusion"}]},"count":0},{"code":{"coding":[{"system":"http://terminology.hl7.org/CodeSystem/measure-population","code":"numerator","display":"Numerator"}]},"count":0},{"code":{"coding":[{"system":"http://terminology.hl7.org/CodeSystem/measure-population","code":"denominator-exception","display":"Denominator Exception"}]},"count":0}]},{"population":[{"code":{"coding":[{"system":"http://terminology.hl7.org/CodeSystem/measure-population","code":"initial-population","display":"Initial Population"}]},"count":1},{"code":{"coding":[{"system":"http://terminology.hl7.org/CodeSystem/measure-population","code":"denominator","display":"Denominator"}]},"count":1},{"code":{"coding":[{"system":"http://terminology.hl7.org/CodeSystem/measure-population","code":"denominator-exclusion","display":"Denominator Exclusion"}]},"count":0},{"code":{"coding":[{"system":"http://terminology.hl7.org/CodeSystem/measure-population","code":"numerator","display":"Numerator"}]},"count":0},{"code":{"coding":[{"system":"http://terminology.hl7.org/CodeSystem/measure-population","code":"denominator-exception","display":"Denominator Exception"}]},"count":1}]},{"population":[{"code":{"coding":[{"system":"http://terminology.hl7.org/CodeSystem/measure-population","code":"initial-population","display":"Initial Population"}]},"count":0},{"code":{"coding":[{"system":"http://terminology.hl7.org/CodeSystem/measure-population","code":"denominator","display":"Denominator"}]},"count":0},{"code":{"coding":[{"system":"http://terminology.hl7.org/CodeSystem/measure-population","code":"denominator-exclusion","display":"Denominator Exclusion"}]},"count":0},{"code":{"coding":[{"system":"http://terminology.hl7.org/CodeSystem/measure-population","code":"numerator","display":"Numerator"}]},"count":0},{"code":{"coding":[{"system":"http://terminology.hl7.org/CodeSystem/measure-population","code":"denominator-exception","display":"Denominator Exception"}]},"count":0}]},{"population":[{"code":{"coding":[{"system":"http://terminology.hl7.org/CodeSystem/measure-population","code":"initial-population","display":"Initial Population"}]},"count":0},{"code":{"coding":[{"system":"http://terminology.hl7.org/CodeSystem/measure-population","code":"denominator","display":"Denominator"}]},"count":0},{"code":{"coding":[{"system":"http://terminology.hl7.org/CodeSystem/measure-population","code":"denominator-exclusion","display":"Denominator Exclusion"}]},"count":0},{"code":{"coding":[{"system":"http://terminology.hl7.org/CodeSystem/measure-population","code":"numerator","display":"Numerator"}]},"count":0},{"code":{"coding":[{"system":"http://terminology.hl7.org/CodeSystem/measure-population","code":"denominator-exception","display":"Denominator Exception"}]},"count":0}]}],"evaluatedResource":[{"reference":"https://madie.cms.gov/Patient/f944825a-367c-46c5-b753-d59f088038d2"},{"reference":"https://madie.cms.gov/Encounter/unlisted-preventive-medicine-service-d4bb"},{"reference":"https://madie.cms.gov/Condition/hepatitis-b-35c1"},{"reference":"https://madie.cms.gov/Observation/ldl-cholesterol-9c60"},{"reference":"https://madie.cms.gov/Coverage/1"},{"reference":"https://madie.cms.gov/Organization/123456"},{"reference":"https://madie.cms.gov/Practitioner/practitioner-123456"}]}}]},"request":{"method":"PUT","url":"Bundle/62fa3a0501afff138d1e9c5f"}}]}