{
  "resourceType": "Bundle",
  "id": "630307c10968f80122477841",
  "type": "collection",
  "entry": [ {
    "fullUrl": "https://madie.cms.gov/Patient/f9bc58d1-b545-404a-b5c5-488c157c21f2",
    "resource": {
      "resourceType": "Patient",
      "id": "f9bc58d1-b545-404a-b5c5-488c157c21f2",
      "meta": {
        "profile": [ "http://hl7.org/fhir/us/qicore/StructureDefinition/qicore-patient" ]
      },
      "text": {
        "status": "generated",
        "div": "<div xmlns=\"http://www.w3.org/1999/xhtml\"><div class=\"hapiHeaderText\">IPPPopStrat2Fail <b>IPPPOPSTRAT2FAIL </b></div><table class=\"hapiPropertyTable\"><tbody><tr><td>Identifier</td><td>013c53416b50921b59196c4457937265</td></tr><tr><td>Date of birth</td><td><span>04 June 1986</span></td></tr></tbody></table></div>"
      },
      "extension": [ {
        "url": "http://hl7.org/fhir/us/core/StructureDefinition/us-core-race",
        "extension": [ {
          "url": "ombCategory",
          "valueCoding": {
            "system": "urn:oid:2.16.840.1.113883.6.238",
            "code": "2054-5",
            "display": "Black or African American",
            "userSelected": true
          }
        }, {
          "url": "text",
          "valueString": "Black or African American"
        } ]
      }, {
        "url": "http://hl7.org/fhir/us/core/StructureDefinition/us-core-ethnicity",
        "extension": [ {
          "url": "ombCategory",
          "valueCoding": {
            "system": "urn:oid:2.16.840.1.113883.6.238",
            "code": "2186-5",
            "display": "Not Hispanic or Latino",
            "userSelected": true
          }
        }, {
          "url": "text",
          "valueString": "Not Hispanic or Latino"
        } ]
      } ],
      "identifier": [ {
        "type": {
          "coding": [ {
            "system": "http://terminology.hl7.org/CodeSystem/v2-0203",
            "code": "MR"
          } ]
        },
        "system": "https://bonnie-fhir.healthit.gov/",
        "value": "630307c10968f80122477841"
      } ],
      "active": true,
      "name": [ {
        "use": "usual",
        "family": "IPPPopStrat2Fail",
        "given": [ "EncounterBeforeStartofMajorDepression" ]
      } ],
      "gender": "female",
      "birthDate": "1986-06-04"
    }
  }, {
    "fullUrl": "https://madie.cms.gov/Encounter/5ca3bd2bb848462a120f9dbf",
    "resource": {
      "resourceType": "Encounter",
      "id": "5ca3bd2bb848462a120f9dbf",
      "status": "finished",
      "class": {
        "system": "http://www.ama-assn.org/go/cpt",
        "code": "90791",
        "display": "Psychiatric diagnostic evaluation",
        "userSelected": true
      },
      "type": [ {
        "coding": [ {
          "system": "http://www.ama-assn.org/go/cpt",
          "code": "90791"
        } ]
      } ],
      "subject": {
        "reference": "Patient/f9bc58d1-b545-404a-b5c5-488c157c21f2"
      },
      "period": {
        "start": "2011-02-05T14:30:00+00:00",
        "end": "2011-02-05T14:50:00+00:00"
      },
      "length": {
        "value": 0.0,
        "unit": "days"
      }
    }
  }, {
    "fullUrl": "https://madie.cms.gov/Observation/5ca3bd2bb848462a120f9dc0",
    "resource": {
      "resourceType": "Observation",
      "id": "5ca3bd2bb848462a120f9dc0",
      "status": "final",
      "code": {
        "coding": [ {
          "system": "http://loinc.org",
          "code": "44261-6"
        } ]
      },
      "subject": {
        "reference": "Patient/f9bc58d1-b545-404a-b5c5-488c157c21f2"
      },
      "effectiveDateTime": "2011-02-05T14:30:00+00:00",
      "valueInteger": 11
    }
  }, {
    "fullUrl": "https://madie.cms.gov/Observation/5ca3bd2bb848462a120f9dc2",
    "resource": {
      "resourceType": "Observation",
      "id": "5ca3bd2bb848462a120f9dc2",
      "status": "final",
      "code": {
        "coding": [ {
          "system": "http://loinc.org",
          "code": "44261-6"
        } ]
      },
      "subject": {
        "reference": "Patient/f9bc58d1-b545-404a-b5c5-488c157c21f2"
      },
      "effectiveDateTime": "2012-01-06T14:30:00+00:00",
      "valueInteger": 4
    }
  }, {
    "fullUrl": "https://madie.cms.gov/Condition/5ca3bd2bb848462a120f9dbe",
    "resource": {
      "resourceType": "Condition",
      "id": "5ca3bd2bb848462a120f9dbe",
      "clinicalStatus": {
        "coding": [ {
          "system": "http://terminology.hl7.org/CodeSystem/condition-clinical",
          "code": "active",
          "display": "active",
          "userSelected": true
        } ]
      },
      "code": {
        "coding": [ {
          "system": "http://snomed.info/sct",
          "code": "268621008"
        } ]
      },
      "subject": {
        "reference": "Patient/f9bc58d1-b545-404a-b5c5-488c157c21f2"
      },
      "onsetPeriod": {
        "start": "2011-02-06T17:00:00+00:00"
      }
    }
  }, {
    "fullUrl": "https://madie.cms.gov/MeasureReport/638501ed4ba3d47c885c02b1/f9bc58d1-b545-404a-b5c5-488c157c21f2",
    "resource": {
      "resourceType": "MeasureReport",
      "id": "456799d9-e0a4-4e0f-8c66-7125460e0146",
      "meta": {
        "profile": [ "http://hl7.org/fhir/us/cqfmeasures/StructureDefinition/test-case-cqfm" ]
      },
      "contained": [ {
        "resourceType": "Parameters",
        "id": "EncounterBeforeStartofMajorDepression-parameters",
        "parameter": [ {
          "name": "subject",
          "valueString": "f9bc58d1-b545-404a-b5c5-488c157c21f2"
        } ]
      } ],
      "extension": [ {
        "url": "http://hl7.org/fhir/us/cqfmeasures/StructureDefinition/cqfm-inputParameters",
        "valueReference": {
          "reference": "#EncounterBeforeStartofMajorDepression-parameters"
        }
      }, {
        "url": "http://hl7.org/fhir/us/cqfmeasures/StructureDefinition/cqfm-testCaseDescription",
        "valueMarkdown": "Patient is 26 and had office visit with PHQ9>9 that occurred before start of Major Depression diagnosis. Patient should not be in initial population."
      } ],
      "modifierExtension": [ {
        "url": "http://hl7.org/fhir/us/cqfmeasures/StructureDefinition/cqfm-isTestCase",
        "valueBoolean": true
      } ],
      "status": "complete",
      "type": "individual",
      "measure": "http://ecqi.healthit.gov/ecqms/Measure/DepressionRemissionatTwelveMonthsFHIR",
      "period": {
        "start": "2024-01-01",
        "end": "2024-12-31"
      },
      "group": [ {
        "population": [ {
          "code": {
            "coding": [ {
              "system": "http://terminology.hl7.org/CodeSystem/measure-population",
              "code": "initial-population",
              "display": "Initial Population"
            } ]
          },
          "count": 0
        }, {
          "code": {
            "coding": [ {
              "system": "http://terminology.hl7.org/CodeSystem/measure-population",
              "code": "denominator",
              "display": "Denominator"
            } ]
          },
          "count": 0
        }, {
          "code": {
            "coding": [ {
              "system": "http://terminology.hl7.org/CodeSystem/measure-population",
              "code": "denominator-exclusion",
              "display": "Denominator Exclusion"
            } ]
          },
          "count": 0
        }, {
          "code": {
            "coding": [ {
              "system": "http://terminology.hl7.org/CodeSystem/measure-population",
              "code": "numerator",
              "display": "Numerator"
            } ]
          },
          "count": 0
        } ]
      } ],
      "evaluatedResource": [ {
        "reference": "https://madie.cms.gov/Patient/f9bc58d1-b545-404a-b5c5-488c157c21f2"
      }, {
        "reference": "https://madie.cms.gov/Encounter/5ca3bd2bb848462a120f9dbf"
      }, {
        "reference": "https://madie.cms.gov/Observation/5ca3bd2bb848462a120f9dc0"
      }, {
        "reference": "https://madie.cms.gov/Observation/5ca3bd2bb848462a120f9dc2"
      }, {
        "reference": "https://madie.cms.gov/Condition/5ca3bd2bb848462a120f9dbe"
      } ]
    }
  } ]
}