{"resourceType":"Bundle","id":"tests-b120a966-fc33-4768-b057-9e1e686d2c88-bundle","type":"transaction","entry":[{"resource":{"resourceType":"Bundle","id":"630307cb0968f801224784b8","type":"collection","entry":[{"fullUrl":"https://madie.cms.gov/Patient/b120a966-fc33-4768-b057-9e1e686d2c88","resource":{"resourceType":"Patient","id":"b120a966-fc33-4768-b057-9e1e686d2c88","meta":{"profile":["http://hl7.org/fhir/us/qicore/StructureDefinition/qicore-patient"]},"extension":[{"url":"http://hl7.org/fhir/us/core/StructureDefinition/us-core-race","extension":[{"url":"ombCategory","valueCoding":{"system":"urn:oid:2.16.840.1.113883.6.238","code":"2106-3","display":"White"}},{"url":"detailed","valueCoding":{"system":"urn:oid:2.16.840.1.113883.6.238","code":"2036-2","display":"Filipino"}},{"url":"text","valueString":"mixed"}]},{"url":"http://hl7.org/fhir/us/core/StructureDefinition/us-core-ethnicity","extension":[{"url":"ombCategory","valueCoding":{"system":"urn:oid:2.16.840.1.113883.6.238","code":"2135-2","display":"Hispanic or Latino"}},{"url":"detailed","valueCoding":{"system":"urn:oid:2.16.840.1.113883.6.238","code":"2148-5","display":"Mexican"}},{"url":"text","valueString":"Hispanic or Latino"}]}],"identifier":[{"type":{"coding":[{"system":"http://terminology.hl7.org/CodeSystem/v2-0203","code":"MR"}]},"system":"https://bonnie-fhir.healthit.gov/","value":"630307cb0968f801224784b8"}],"name":[{"family":"NUMERPopStrat12Fail","given":["SecondPHQ9OutofRange"]}],"gender":"female","birthDate":"1948-01-01"}},{"fullUrl":"https://madie.cms.gov/Encounter/846816468613163156","resource":{"resourceType":"Encounter","id":"846816468613163156","meta":{"profile":["http://hl7.org/fhir/us/qicore/StructureDefinition/qicore-encounter"]},"status":"finished","class":{"system":"http://terminology.hl7.org/CodeSystem/v3-ActCode","code":"AMB","display":"ambulatory"},"type":[{"coding":[{"system":"http://www.ama-assn.org/go/cpt","version":"2023","code":"90791"}]}],"subject":{"reference":"Patient/b120a966-fc33-4768-b057-9e1e686d2c88"},"period":{"start":"2023-02-25T14:30:00+00:00","end":"2023-02-25T14:50:00+00:00"},"length":{"value":0.0,"unit":"days"}}},{"fullUrl":"https://madie.cms.gov/Observation/98778613516461352131315","resource":{"resourceType":"Observation","id":"98778613516461352131315","meta":{"profile":["http://hl7.org/fhir/us/qicore/StructureDefinition/qicore-observation"]},"status":"final","category":[{"coding":[{"system":"http://terminology.hl7.org/CodeSystem/observation-category","code":"survey","display":"Survey"}]}],"code":{"coding":[{"system":"http://loinc.org","version":"2.73","code":"44261-6"}]},"subject":{"reference":"Patient/b120a966-fc33-4768-b057-9e1e686d2c88"},"effectiveDateTime":"2023-02-25T14:35:00+00:00","valueInteger":10}},{"fullUrl":"https://madie.cms.gov/Observation/784651651684135131313","resource":{"resourceType":"Observation","id":"784651651684135131313","meta":{"profile":["http://hl7.org/fhir/us/qicore/StructureDefinition/qicore-observation"]},"status":"final","category":[{"coding":[{"system":"http://terminology.hl7.org/CodeSystem/observation-category","code":"survey","display":"Survey"}]}],"code":{"coding":[{"system":"http://loinc.org","version":"2.73","code":"44261-6"}]},"subject":{"reference":"Patient/b120a966-fc33-4768-b057-9e1e686d2c88"},"effectiveDateTime":"2024-02-19T14:30:00+00:00","valueInteger":300}},{"fullUrl":"https://madie.cms.gov/Condition/18961651646466486545","resource":{"resourceType":"Condition","id":"18961651646466486545","meta":{"profile":["http://hl7.org/fhir/us/qicore/StructureDefinition/qicore-condition"]},"clinicalStatus":{"coding":[{"system":"http://terminology.hl7.org/CodeSystem/condition-clinical","code":"active","display":"active"}]},"verificationStatus":{"coding":[{"system":"http://terminology.hl7.org/CodeSystem/condition-ver-status","code":"confirmed"}]},"category":[{"coding":[{"system":"http://terminology.hl7.org/CodeSystem/condition-category","code":"problem-list-item","display":"Problem List Item"}]}],"code":{"coding":[{"system":"http://hl7.org/fhir/sid/icd-10-cm","version":"2023","code":"F32.9"}]},"subject":{"reference":"Patient/b120a966-fc33-4768-b057-9e1e686d2c88"},"onsetDateTime":"2023-02-25T14:35:00+00:00"}},{"fullUrl":"https://madie.cms.gov/MeasureReport/638501ed4ba3d47c885c02b1/b120a966-fc33-4768-b057-9e1e686d2c88","resource":{"resourceType":"MeasureReport","id":"c3f55dd4-0c5f-4e7d-8235-ba7730ed3807","meta":{"profile":["http://hl7.org/fhir/us/cqfmeasures/StructureDefinition/test-case-cqfm"]},"contained":[{"resourceType":"Parameters","id":"SecondPHQ9OutofRange2-parameters","parameter":[{"name":"subject","valueString":"b120a966-fc33-4768-b057-9e1e686d2c88"}]}],"extension":[{"url":"http://hl7.org/fhir/us/cqfmeasures/StructureDefinition/cqfm-inputParameters","valueReference":{"reference":"#SecondPHQ9OutofRange2-parameters"}},{"url":"http://hl7.org/fhir/us/cqfmeasures/StructureDefinition/cqfm-testCaseDescription","valueMarkdown":"Patient has a Major Depression diagnosis and an encounter with PHQ-9>9 during Denom ID period. Patient has an incorrect/non applicable result for the PHQ-9 assessment during the MAP. Patient is in the denom for strat 2. "}],"modifierExtension":[{"url":"http://hl7.org/fhir/us/cqfmeasures/StructureDefinition/cqfm-isTestCase","valueBoolean":true}],"status":"complete","type":"individual","measure":"http://ecqi.healthit.gov/ecqms/Measure/DepressionRemissionatTwelveMonthsFHIR","period":{"start":"2024-01-01","end":"2024-12-31"},"group":[{"population":[{"code":{"coding":[{"system":"http://terminology.hl7.org/CodeSystem/measure-population","code":"initial-population","display":"Initial Population"}]},"count":1},{"code":{"coding":[{"system":"http://terminology.hl7.org/CodeSystem/measure-population","code":"denominator","display":"Denominator"}]},"count":1},{"code":{"coding":[{"system":"http://terminology.hl7.org/CodeSystem/measure-population","code":"denominator-exclusion","display":"Denominator Exclusion"}]},"count":0},{"code":{"coding":[{"system":"http://terminology.hl7.org/CodeSystem/measure-population","code":"numerator","display":"Numerator"}]},"count":0}]}],"evaluatedResource":[{"reference":"https://madie.cms.gov/Patient/b120a966-fc33-4768-b057-9e1e686d2c88"},{"reference":"https://madie.cms.gov/Encounter/846816468613163156"},{"reference":"https://madie.cms.gov/Observation/98778613516461352131315"},{"reference":"https://madie.cms.gov/Observation/784651651684135131313"},{"reference":"https://madie.cms.gov/Condition/18961651646466486545"}]}}]},"request":{"method":"PUT","url":"Bundle/630307cb0968f801224784b8"}}]}