{"resourceType":"Bundle","id":"tests-3900270d-e047-4ecf-9b26-7bac7625b328-bundle","type":"transaction","entry":[{"resource":{"resourceType":"Bundle","id":"630307cf0968f8012247895d","type":"collection","entry":[{"fullUrl":"https://madie.cms.gov/Patient/3900270d-e047-4ecf-9b26-7bac7625b328","resource":{"resourceType":"Patient","id":"3900270d-e047-4ecf-9b26-7bac7625b328","meta":{"profile":["http://hl7.org/fhir/us/qicore/StructureDefinition/qicore-patient"]},"extension":[{"url":"http://hl7.org/fhir/us/core/StructureDefinition/us-core-race","extension":[{"url":"ombCategory","valueCoding":{"system":"urn:oid:2.16.840.1.113883.6.238","code":"2106-3","display":"White"}},{"url":"text","valueString":"White"}]},{"url":"http://hl7.org/fhir/us/core/StructureDefinition/us-core-ethnicity","extension":[{"url":"ombCategory","valueCoding":{"system":"urn:oid:2.16.840.1.113883.6.238","code":"2186-5","display":"Not Hispanic or Latino"}},{"url":"text","valueString":"Not Hispanic or Latino"}]}],"identifier":[{"type":{"coding":[{"system":"http://terminology.hl7.org/CodeSystem/v2-0203","code":"MR"}]},"system":"https://bonnie-fhir.healthit.gov/","value":"6546841651641616513421"}],"name":[{"family":"DENEXPopStrat1Pass","given":["PallCareEncEOSofMP"]}],"gender":"female","birthDate":"2006-01-01"}},{"fullUrl":"https://madie.cms.gov/Encounter/846816468613163156","resource":{"resourceType":"Encounter","id":"846816468613163156","meta":{"profile":["http://hl7.org/fhir/us/qicore/StructureDefinition/qicore-encounter"]},"status":"finished","class":{"system":"http://terminology.hl7.org/CodeSystem/v3-ActCode","code":"AMB","display":"ambulatory"},"type":[{"coding":[{"system":"http://www.ama-assn.org/go/cpt","version":"2023","code":"90791"}]}],"subject":{"reference":"Patient/3900270d-e047-4ecf-9b26-7bac7625b328"},"period":{"start":"2023-02-25T14:30:00+00:00","end":"2023-02-25T14:50:00+00:00"},"length":{"value":0.0,"unit":"days"}}},{"fullUrl":"https://madie.cms.gov/Observation/98778613516461352131315","resource":{"resourceType":"Observation","id":"98778613516461352131315","meta":{"profile":["http://hl7.org/fhir/us/qicore/StructureDefinition/qicore-observation"]},"status":"final","category":[{"coding":[{"system":"http://terminology.hl7.org/CodeSystem/observation-category","code":"survey","display":"Survey"}]}],"code":{"coding":[{"system":"http://loinc.org","version":"2.73","code":"44261-6"}]},"subject":{"reference":"Patient/3900270d-e047-4ecf-9b26-7bac7625b328"},"effectiveDateTime":"2023-02-25T14:35:00+00:00","valueInteger":10}},{"fullUrl":"https://madie.cms.gov/MeasureReport/638501ed4ba3d47c885c02b1/3900270d-e047-4ecf-9b26-7bac7625b328","resource":{"resourceType":"MeasureReport","id":"5fbcd91d-b176-409e-91f5-b6e9fcb56728","meta":{"profile":["http://hl7.org/fhir/us/cqfmeasures/StructureDefinition/test-case-cqfm"]},"contained":[{"resourceType":"Parameters","id":"Patientis17-parameters","parameter":[{"name":"subject","valueString":"3900270d-e047-4ecf-9b26-7bac7625b328"}]}],"extension":[{"url":"http://hl7.org/fhir/us/cqfmeasures/StructureDefinition/cqfm-inputParameters","valueReference":{"reference":"#Patientis17-parameters"}},{"url":"http://hl7.org/fhir/us/cqfmeasures/StructureDefinition/cqfm-testCaseDescription","valueMarkdown":"Patient is 17 years old (edge case of stratification 1). Passes IPP for strat 1, fails IPP for strat 2. "}],"modifierExtension":[{"url":"http://hl7.org/fhir/us/cqfmeasures/StructureDefinition/cqfm-isTestCase","valueBoolean":true}],"status":"complete","type":"individual","measure":"http://ecqi.healthit.gov/ecqms/Measure/DepressionRemissionatTwelveMonthsFHIR","period":{"start":"2024-01-01","end":"2024-12-31"},"group":[{"population":[{"code":{"coding":[{"system":"http://terminology.hl7.org/CodeSystem/measure-population","code":"initial-population","display":"Initial Population"}]},"count":0},{"code":{"coding":[{"system":"http://terminology.hl7.org/CodeSystem/measure-population","code":"denominator","display":"Denominator"}]},"count":0},{"code":{"coding":[{"system":"http://terminology.hl7.org/CodeSystem/measure-population","code":"denominator-exclusion","display":"Denominator Exclusion"}]},"count":0},{"code":{"coding":[{"system":"http://terminology.hl7.org/CodeSystem/measure-population","code":"numerator","display":"Numerator"}]},"count":0}]}],"evaluatedResource":[{"reference":"https://madie.cms.gov/Patient/3900270d-e047-4ecf-9b26-7bac7625b328"},{"reference":"https://madie.cms.gov/Encounter/846816468613163156"},{"reference":"https://madie.cms.gov/Observation/98778613516461352131315"}]}}]},"request":{"method":"PUT","url":"Bundle/630307cf0968f8012247895d"}}]}