{"resourceType":"Bundle","id":"tests-66e74744-5743-4af3-84e7-598a367e4fbd-bundle","type":"transaction","entry":[{"resource":{"resourceType":"Bundle","id":"630307be0968f801224774ce","type":"collection","entry":[{"fullUrl":"https://madie.cms.gov/Patient/66e74744-5743-4af3-84e7-598a367e4fbd","resource":{"resourceType":"Patient","id":"66e74744-5743-4af3-84e7-598a367e4fbd","meta":{"profile":["http://hl7.org/fhir/us/qicore/StructureDefinition/qicore-patient"]},"extension":[{"url":"http://hl7.org/fhir/us/core/StructureDefinition/us-core-race","extension":[{"url":"ombCategory","valueCoding":{"system":"urn:oid:2.16.840.1.113883.6.238","code":"2106-3","display":"White"}},{"url":"text","valueString":"White"}]},{"url":"http://hl7.org/fhir/us/core/StructureDefinition/us-core-ethnicity","extension":[{"url":"ombCategory","valueCoding":{"system":"urn:oid:2.16.840.1.113883.6.238","code":"2186-5","display":"Not Hispanic or Latino"}},{"url":"text","valueString":"Not Hispanic or Latino"}]}],"identifier":[{"type":{"coding":[{"system":"http://terminology.hl7.org/CodeSystem/v2-0203","code":"MR"}]},"system":"https://bonnie-fhir.healthit.gov/","value":"630307be0968f801224774ce"}],"name":[{"family":"IPPPopStrat1Fail","given":["NoEncounterInMeasurementPeriod"]}],"gender":"female","birthDate":"2009-01-01"}},{"fullUrl":"https://madie.cms.gov/Encounter/846816468613163156","resource":{"resourceType":"Encounter","id":"846816468613163156","meta":{"profile":["http://hl7.org/fhir/us/qicore/StructureDefinition/qicore-encounter"]},"status":"finished","class":{"system":"http://terminology.hl7.org/CodeSystem/v3-ActCode","code":"AMB","display":"ambulatory"},"type":[{"coding":[{"system":"http://www.ama-assn.org/go/cpt","version":"2023","code":"90791"}]}],"subject":{"reference":"Patient/66e74744-5743-4af3-84e7-598a367e4fbd"},"period":{"start":"2023-06-25T14:30:00+00:00","end":"2023-06-25T14:50:00+00:00"},"length":{"value":0.0,"unit":"days"}}},{"fullUrl":"https://madie.cms.gov/Observation/98778613516461352131315","resource":{"resourceType":"Observation","id":"98778613516461352131315","meta":{"profile":["http://hl7.org/fhir/us/qicore/StructureDefinition/qicore-observation"]},"status":"final","category":[{"coding":[{"system":"http://terminology.hl7.org/CodeSystem/observation-category","code":"survey","display":"Survey"}]}],"code":{"coding":[{"system":"http://loinc.org","version":"2.73","code":"44261-6"}]},"subject":{"reference":"Patient/66e74744-5743-4af3-84e7-598a367e4fbd"},"effectiveDateTime":"2023-06-25T14:35:00+00:00","valueInteger":3}},{"fullUrl":"https://madie.cms.gov/Condition/18961651646466486545","resource":{"resourceType":"Condition","id":"18961651646466486545","meta":{"profile":["http://hl7.org/fhir/us/qicore/StructureDefinition/qicore-condition"]},"clinicalStatus":{"coding":[{"system":"http://terminology.hl7.org/CodeSystem/condition-clinical","code":"active","display":"active"}]},"verificationStatus":{"coding":[{"system":"http://terminology.hl7.org/CodeSystem/condition-ver-status","code":"confirmed"}]},"category":[{"coding":[{"system":"http://terminology.hl7.org/CodeSystem/condition-category","code":"problem-list-item","display":"Problem List Item"}]}],"code":{"coding":[{"system":"http://hl7.org/fhir/sid/icd-10-cm","version":"2023","code":"F32.9"}]},"subject":{"reference":"Patient/66e74744-5743-4af3-84e7-598a367e4fbd"},"onsetDateTime":"2023-02-25T14:35:00+00:00"}},{"fullUrl":"https://madie.cms.gov/MeasureReport/638501ed4ba3d47c885c02b1/66e74744-5743-4af3-84e7-598a367e4fbd","resource":{"resourceType":"MeasureReport","id":"7044ad96-2088-4ce4-be29-3a80e748992c","meta":{"profile":["http://hl7.org/fhir/us/cqfmeasures/StructureDefinition/test-case-cqfm"]},"contained":[{"resourceType":"Parameters","id":"NoEncounterInMeasurementPeriod-parameters","parameter":[{"name":"subject","valueString":"66e74744-5743-4af3-84e7-598a367e4fbd"}]}],"extension":[{"url":"http://hl7.org/fhir/us/cqfmeasures/StructureDefinition/cqfm-inputParameters","valueReference":{"reference":"#NoEncounterInMeasurementPeriod-parameters"}},{"url":"http://hl7.org/fhir/us/cqfmeasures/StructureDefinition/cqfm-testCaseDescription","valueMarkdown":"Patient has Dysthymia diagnosis but no recorded score for PHQ9 assessment during the denom ID period. Patient should not be in initial population."}],"modifierExtension":[{"url":"http://hl7.org/fhir/us/cqfmeasures/StructureDefinition/cqfm-isTestCase","valueBoolean":true}],"status":"complete","type":"individual","measure":"http://ecqi.healthit.gov/ecqms/Measure/DepressionRemissionatTwelveMonthsFHIR","period":{"start":"2024-01-01","end":"2024-12-31"},"group":[{"population":[{"code":{"coding":[{"system":"http://terminology.hl7.org/CodeSystem/measure-population","code":"initial-population","display":"Initial Population"}]},"count":0},{"code":{"coding":[{"system":"http://terminology.hl7.org/CodeSystem/measure-population","code":"denominator","display":"Denominator"}]},"count":0},{"code":{"coding":[{"system":"http://terminology.hl7.org/CodeSystem/measure-population","code":"denominator-exclusion","display":"Denominator Exclusion"}]},"count":0},{"code":{"coding":[{"system":"http://terminology.hl7.org/CodeSystem/measure-population","code":"numerator","display":"Numerator"}]},"count":0}]}],"evaluatedResource":[{"reference":"https://madie.cms.gov/Patient/66e74744-5743-4af3-84e7-598a367e4fbd"},{"reference":"https://madie.cms.gov/Encounter/846816468613163156"},{"reference":"https://madie.cms.gov/Observation/98778613516461352131315"},{"reference":"https://madie.cms.gov/Condition/18961651646466486545"}]}}]},"request":{"method":"PUT","url":"Bundle/630307be0968f801224774ce"}}]}